Folder: BBO-Rietveld/data/LiCoO2/Powder-data-Bruker

Note: data/README.md
# Dataset
We provide the diffraction and crystallography dataset for Y<sub>2</sub>O<sub>3</sub>, Dy<sub>0.5</sub>Sr<sub>0.5</sub>MnO<sub>3</sub> (DSMO), and LiCoO<sub>2</sub>.

These are distributed according to its original licence.

## Y2O3 and DSMO
- Data source
  - AutoFP repository
    - https://github.com/xpclove/autofp/tree/master/example
- Licence
  - GPL v3
- Citation
  - Cui, X. et al. AutoFP: a GUI for highly automated Rietveld refinement using an expert system algorithm based on  FullProf. J Appl Crystallogr <b>48</b>, 1581â€“1586 (2015).

## LiCoO2
- Data source
  - PowBase
    - http://www.cristal.org/powbase/index.html
- Licence
  - Copyleft

File: LiCoO2.UXD
; E:\COD-all\Powbase-to-COD\fullprof\LiCoO2\LiCoO2.RAW - (Diffrac AT V1) File converted by XCH V1.0
_FILEVERSION=1
_SAMPLE='LICoO2'
_WL1=1.540600
_WL2=1.544430
_WL3=1.392600
_WLRATIO=0.514000
_ANODE='Cu'
; (Data for Range number 1)
_DRIVE='COUPLED'
_STEPTIME=12.5
_STEPSIZE=0.030000
_STEPMODE='C'
_START=15.985
_2THETA=15.985
_THETA=0.000000
_KHI=0.000000
_PHI=0.000000
_COUNTS
      649       609       622       618       611       622       638       607
      674       640       633       633       619       640       617       609
     1010      1056      1196      1327      1496      1614      1958      2109
      671       638       649       616       649       614       615       594
      538       533       539       507       566       550       534       554
      526       582       537       548       591       534       516       534
      578       522       560       530       545       516       514       556
      496       537       460       521       530       538       490       500
      535       481       510       494       451       475       530       488
      457       463       472       447       470       422       473       433
      460       505       437       476       429       438       454       440
      445       421       470       520       436       431       438       439
      474       459       441       437       403       439       465       474
      422       452       455       435       435       440       440       454
      437       435       397       425       457       447       430       439
      414       437       438       470       416       463       412       432
      424       409       438       423       414       422       407       418
      442       427       416       452       453       407       406       438
     4808      3979      2562      1383       911       754       666       659
      557       546       514       532       532       551       587       703
      397       424       441       419       414       419       415       422
      416       412       369       385       386       424       381       391
      407       407       401       388       425       388       376       391
      411       402       430       393       412       434       398       404
      515       525       569       559       648       764       763       865
      496       475       491       449       436       442       430       447
      424       383       411       398       404       406       390       411
      394       400       429       413       442       428       416       391
     2600      1791      1660      1890      1650      1139       741       623
      409       376       412       388       410       431       390       435
      393       391       354       398       384       368       376       388
      404       391       407       387       395       393       402       411
      383       403       370       373       388       370       389       377
      368       393       404       382       392       384       376       401
      377       387       423       388       399       426       403       378
      392       416       360       401       403       389       374       349
      760       949      1005       821       672       667       734       853
      370       403       421       372       381       385       413       404
      417       417       426       410       399       424       362       420
      369       373       374       388       373       361       428       427
      394       419       411       380       368       392       384       407
      559       539       529       569       553       605       749       880
     2157      3405      3845      3093      1890      1463      1462      2026
      430       410       395       402       409       428       371       386
      396       406       374       387       353       409       420       423
     1829      1476       917       657       575       519       454       481
      355       408       362       361       394       394       387       383
      375       388       403       359       367       395       360       389
      382       401       396       386       392       400       375       381
      403       406       401       383       420       391       386       390
      375       382       368       374       411       412       391       394
      386       393       385       380       371       388       393       364
      422       439       468       522       540       695       865       956
      561       652       753       859       821       680       550       598
      364       378       364       385       399       369       368       385
      420       404       406       368       411       431       439       391
      362       398       382       380       405       396       371       359
      640       514       476       445       451       402       427       398
      435       448       443       395       492       487       519       591
      396       391       405       401       415       381       421       423
      368       409       377       400       368       387       359       395
      387       364       383       408       393       376       371       373
      363       433       355       375       385       421       402       346
      384       394       398       412       418       395       390       376
      344       339       388       383       365       415       356       414
      383       364       369       368       395       372       366       372
      453       504       527       682       732       760       898       962
      395       375       355       351       396       348       396       372
      399       398       393       398       402       390       393       400
      357       378       390       411       378       389       346       372
      420       376       386       431       396       392       367       400
      453       419       374       387       398       376       367       382
      371       493       433       463       531       577       549       523
      384       383       344       405       369       387       361       386
      314       366       381       372       382       369       356       350
      361       389       383       391       374       338       409       360
      381       408       395       385       400       360       334       341
      362       403       365       392       392       352       332       344
      393       370       378       385       383       407       366       356
      561       454       398       396       405       393       446       424
      371       414       393       421       393       408       433       489
      365       417       400       393       423       361       385       386
      506       484       466       444       405       427       429       399
      413       388       400       373       386       373       368       377
      404       372       379       339       400       409       381       392
      515       563       571       559       623       714       858       970
      408       389       429       449       443       484       438       475
      439       425       395       398       391       376       407       391
      447       490       452       505       545       647       750       748
      405       403       429       358       394       401       410       442
      441       401       380       424       424       419       400       425
      377       375       364       345       385       370       374       382
      375       371       361       369       349       377       381       369
      371       370       360       341       371       395       369       381
      377       359       386       368       378       373       368       365
      369       420       363       394       371       373       356       362
      347       379       410       416       336       391       380       367
      390       346       379       358       352       428       392       384
      439       484       514       536       597       699       854       926
      426       400       394       392       401       374       364       386
      401